File: MainProject/src/main/res/consecutiveTests_1413_1_1.csv
# point,freq,zreal,zimag,zmod,zphz,zsig,Idc,Vdc,ie_range,gain,vmod,vphz,vsig,vthd,imod,iphz,isig,ithd,zreal_drift,zimag_drift,zmod_drift,zphz_drift
0.000000000000000000e+00,250020,4147.07,559.245,4184.61,7.68017,1,3.16468e-07,0.124931,8,0.102053,0.0042705,1.5385,0.000877451,0.165054,1.02053e-06,-6.14168,1e-05,0.197215,4147.07,559.245,4184.61,7.68017
1,198691,4069.36,469.897,4096.4,6.58687,1,5.25444e-07,0.268989,8,0.0511619,0.0197147,48.5798,0.00394122,0.182354,4.8127e-06,41.993,1e-05,0.146993,4069.36,469.897,4096.4,6.58687
2,157793,4057.46,332.188,4071.04,4.68042,1,4.80296e-07,0.369672,8,0.0625598,0.0239575,91.3621,0.0038238,0.151345,5.88487e-06,86.6817,1e-05,0.138475,4057.46,332.188,4071.04,4.68042
3,125332,4018.96,248.995,4026.67,3.54524,1,4.53166e-07,0.424327,8,0.0769361,0.0291419,91.6711,0.00403377,0.133373,7.23722e-06,88.1259,9.51502e-07,0.124831,4018.96,248.995,4026.67,3.54524
4,99550.8,4006.37,150.303,4009.19,2.1485,1,3.04683e-07,0.451939,8,0.0928694,0.0350244,-77.3479,0.00172052,0.0467813,8.73603e-06,-79.4964,1e-05,0.0455436,4006.37,150.303,4009.19,2.1485
5,79160.2,4007.85,93.3026,4008.94,1.3336,1,2.98548e-07,0.478926,8,0.117164,0.0441842,91.3021,0.00278271,0.0606091,1.10214e-05,89.9685,1e-05,0.0587315,4007.85,93.3026,4008.94,1.3336
6,62871.1,4012.71,33.7378,4012.85,0.481716,1,2.97689e-07,0.499806,8,0.161814,0.055421,162.143,0.00399298,0.0708399,1.38109e-05,161.661,9.84405e-07,0.0691015,4012.71,33.7378,4012.85,0.481716
7,49980.5,4022.51,-16.9555,4022.54,-0.241509,1,2.29534e-07,0.495441,8,0.260724,0.0648134,-52.7721,0.00441426,0.0669059,1.61125e-05,-52.5306,1.04865e-06,0.0641719,4022.51,-16.9555,4022.54,-0.241509
8,39668,4034.16,-65.42,4034.69,-0.929057,1,1.79207e-07,0.492069,8,0.437487,0.0677007,35.4818,0.00203605,0.0286712,1.67797e-05,36.4108,1e-05,0.0308234,4034.16,-65.42,4034.69,-0.929057
9,31582,4044.44,-112.211,4046,-1.58924,1,1.44025e-07,0.490374,8,0.576109,0.0532802,-8.1091,0.000666732,0.00462224,1.31686e-05,-6.51986,1e-05,0.0135561,4044.44,-112.211,4046,-1.58924
10,25019.5,4062.94,-156.557,4065.95,-2.20668,1,1.22263e-07,0.492547,8,0.662762,0.0467751,148.774,0.00063823,0.0143735,1.15041e-05,150.981,1e-05,0.0159572,4062.94,-156.557,4065.95,-2.20668
11,19863.3,4082.84,-208.396,4088.16,-2.92195,1,1.23844e-07,0.496563,8,0.740407,0.0456711,178.047,0.000762642,0.00135814,1.11715e-05,-179.031,1e-05,0.00280732,4082.84,-208.396,4088.16,-2.92195
12,15682.9,4102.88,-262.808,4111.29,-3.66505,1,1.05025e-07,0.494629,8,0.808707,0.0449054,96.3784,0.000665927,0.00153984,1.09225e-05,100.043,1e-05,0.00202892,4102.88,-262.808,4111.29,-3.66505
13,12597.7,4138.24,-327.267,4151.16,-4.52175,1,8.38316e-08,0.487515,8,0.855962,0.0439372,35.9327,0.000761625,0.00114116,1.05843e-05,40.4545,1e-05,0.00200343,4138.24,-327.267,4151.16,-4.52175
14,9895.83,4159.55,-392.866,4178.06,-5.39553,1,1.05201e-07,0.483978,8,0.899848,0.0439227,-3.51103,0.000450967,0.0131371,1.05127e-05,1.8845,1e-05,0.00250928,4159.55,-392.866,4178.06,-5.39553
15,7910.16,4190.93,-467.662,4216.94,-6.36724,1,1.05285e-07,0.482299,8,0.928143,0.0434954,14.7454,0.000756521,0.00147644,1.03144e-05,21.1126,1e-05,0.00435728,4190.93,-467.662,4216.94,-6.36724
16,6307.87,4229.43,-562.829,4266.71,-7.58008,1,1.09449e-07,0.472901,8,0.948754,0.0436146,74.6876,0.000550373,0.00180986,1.02221e-05,82.2677,1e-05,0.00256626,4229.43,-562.829,4266.71,-7.58008
17,4973.32,4284.22,-682.538,4338.25,-9.05197,1,1.34801e-07,0.468593,8,0.932337,0.0426318,-37.0338,0.000544275,0.00108819,9.82696e-06,-27.9818,1e-05,0.000805371,4284.22,-682.538,4338.25,-9.05197
18,3944.36,4339.95,-808.849,4414.68,-10.5573,1,1.54973e-07,0.467028,8,0.958946,0.0454068,69.1119,0.000559396,0.000695877,1.02854e-05,79.6692,1e-05,0.000775535,4339.95,-808.849,4414.68,-10.5573
19,3144.05,4403.28,-953.658,4505.37,-12.2203,1,1.83437e-07,0.470739,8,0.973205,0.0457236,108.051,0.000612788,0.0131711,1.01487e-05,120.271,1e-05,0.000925406,4403.28,-953.658,4505.37,-12.2203
20,2488.43,4478.88,-1127.31,4618.57,-14.1276,1,1.91154e-07,0.479287,8,0.981542,0.0465814,171.179,0.000590093,0.0125043,1.00857e-05,-174.693,1e-05,0.000964878,4478.88,-1127.31,4618.57,-14.1276
21,1976.66,4565.93,-1330.07,4755.71,-16.241,1,1.81439e-07,0.486622,8,0.986998,0.0478215,-114.196,0.000390167,0.00103623,1.00556e-05,-97.9553,1e-05,0.000983016,4565.93,-1330.07,4755.71,-16.241
22,1582.03,4664.72,-1566.52,4920.73,-18.5632,1,1.65834e-07,0.48911,8,0.989882,0.0493511,120.331,0.000763188,0.00140836,1.00292e-05,138.894,1e-05,0.00106115,4664.72,-1566.52,4920.73,-18.5632
23,1253.63,4791.25,-1861.46,5140.15,-21.2318,1,1.43731e-07,0.49249,8,0.992846,0.0515553,147.499,1e-05,0.00147392,1.00299e-05,168.731,1e-05,0.0011235,4791.25,-1861.46,5140.15,-21.2318
24,996.094,4939.26,-2204.25,5408.79,-24.0498,1,1.24749e-07,0.493541,8,0.993358,0.0541157,-15.0757,0.000558757,0.00207398,1.00052e-05,8.97417,1e-05,0.00133096,4939.26,-2204.25,5408.79,-24.0498
25,790.028,5108.53,-2611.49,5737.33,-27.0762,1,1.15006e-07,0.502833,8,0.995874,0.0575187,-136.468,0.000464894,0.00248084,1.00253e-05,-109.392,1e-05,0.00126856,5108.53,-2611.49,5737.33,-27.0762
26,628.811,5319.67,-3099.76,6156.9,-30.2292,1,1.0739e-07,0.501224,8,0.997441,0.0616659,73.7634,0.000593217,0.00314787,1.00157e-05,103.993,1e-05,0.00106084,5319.67,-3099.76,6156.9,-30.2292
27,496.324,5300.88,-3856.83,6555.49,-36.039,1,9.76313e-08,0.505587,8,0.96864,0.063662,100.115,0.000652454,0.00268175,9.71125e-06,136.154,1e-05,0.000440753,5300.88,-3856.83,6555.49,-36.039
28,395.331,5652.51,-4547.22,7254.52,-38.8153,1,1.07654e-07,0.499817,8,0.988537,0.0740353,61.5796,0.000669319,0.00439726,1.02054e-05,100.395,1e-05,0.000478408,5652.51,-4547.22,7254.52,-38.8153
29,315.505,6038.54,-5314.77,8044.3,-41.3523,1,1.16542e-07,0.506028,8,0.995963,0.0810473,-174.413,0.000641398,0.00626669,1.00751e-05,-133.061,1e-05,0.000711069,6038.54,-5314.77,8044.3,-41.3523
30,249.335,6529.82,-6297.18,9071.55,-43.9609,1,1.23422e-07,0.502051,8,0.999011,0.0909931,48.691,0.000869977,0.00839426,1.00306e-05,92.6519,1e-05,0.000864194,6529.82,-6297.18,9071.55,-43.9609
31,198.623,7105.59,-7472.61,10311.6,-46.4422,1,1.2455e-07,0.488108,8,0.997334,0.102943,31.5488,0.00118799,0.0109168,9.98321e-06,77.991,1e-05,0.000978206,7105.59,-7472.61,10311.6,-46.4422
32,158.006,7800.78,-8840.9,11790.4,-48.5764,1,1.369e-07,0.480827,8,0.993751,0.117481,88.089,0.00166484,0.0134294,9.96407e-06,136.665,1e-05,0.00124128,7800.78,-8840.9,11790.4,-48.5764
33,125.558,8543.58,-10229.1,13327.7,-50.1307,1,1.62664e-07,0.502736,8,0.984626,0.132053,-149.017,0.00234079,0.0171646,9.90818e-06,-98.8859,1e-05,0.00121481,8543.58,-10229.1,13327.7,-50.1307
34,99.734,9550.73,-11495.7,14945.5,-50.28,1,1.56632e-07,0.551974,8,0.990381,0.150329,-147.161,0.00398784,0.0256121,1.00584e-05,-96.8814,1e-05,0.00109183,9550.73,-11495.7,14945.5,-50.28
35,78.7815,10708.8,-13406.3,17158.3,-51.3826,1,1.41222e-07,0.556994,8,0.991313,0.171744,-146.283,0.00550387,0.0309836,1.00094e-05,-94.9005,1e-05,0.000654058,10708.8,-13406.3,17158.3,-51.3826
36,62.9195,11934.2,-15536.9,19591.3,-52.4716,1,1.15525e-07,0.554533,8,0.99125,0.195901,-145.828,0.00712233,0.0354277,9.99937e-06,-93.356,1e-05,0.000908101,11934.2,-15536.9,19591.3,-52.4716
37,49.867,13608,-17905.8,22489.9,-52.766,1,1.45028e-07,0.554326,8,0.992622,0.22521,-146.315,0.00992865,0.0434973,1.00138e-05,-93.5486,1e-05,0.000791306,13608,-17905.8,22489.9,-52.766
38,39.7246,15474,-20447.6,25642.7,-52.8829,1,1.41273e-07,0.554168,8,0.993204,0.256578,-145.449,0.0136087,0.0523632,1.00059e-05,-92.5662,1e-05,0.000811688,15474,-20447.6,25642.7,-52.8829
39,31.4597,17696.2,-23373.1,29316.5,-52.8699,1,1.15924e-07,0.549864,8,0.993997,0.293399,-144.64,0.018504,0.0622654,1.0008e-05,-91.7705,1e-05,0.000906217,17696.2,-23373.1,29316.5,-52.8699
40,24.9335,20174.7,-26267.6,33121.1,-52.474,1,1.2279e-07,0.555493,8,0.994477,0.331371,-143.627,0.0254154,0.0757512,1.00048e-05,-91.1526,1e-05,0.00100223,20174.7,-26267.6,33121.1,-52.474
41,19.8623,23026.9,-29613.5,37512.6,-52.1321,1,1.02312e-07,0.548452,8,0.995315,0.375442,-142.783,0.0338128,0.0889348,1.00084e-05,-90.6512,1e-05,0.00106075,23026.9,-29613.5,37512.6,-52.1321
42,15.7828,26512,-33749.1,42917.2,-51.8482,1,1.05348e-07,0.52725,8,0.995785,0.429374,-142.112,0.0449682,0.103452,1.00047e-05,-90.2636,1e-05,0.00120445,26512,-33749.1,42917.2,-51.8482
43,12.4668,30671.8,-38645.7,49338.1,-51.5622,1,1.35766e-07,0.498189,8,0.996146,0.49356,-141.506,0.0590983,0.118289,1.00036e-05,-89.9439,1e-05,0.00128204,30671.8,-38645.7,49338.1,-51.5622
44,9.9734,34978.6,-43785,56041.3,-51.3797,1,1.78359e-07,0.471522,8,0.996412,0.560563,-141.078,0.0745349,0.131373,1.00027e-05,-89.6982,1e-05,0.00116321,34978.6,-43785,56041.3,-51.3797
45,7.87815,39953.6,-49674.9,63748.6,-51.1903,1,2.14172e-07,0.442598,8,0.996922,0.637813,-140.678,0.0916608,0.142,1.00051e-05,-89.4876,1e-05,0.00136802,39953.6,-49674.9,63748.6,-51.1903
46,6.2751,45585.4,-56126.3,72306.2,-50.9167,1,2.0457e-07,0.392251,8,0.997459,0.723452,-140.242,0.104073,0.14214,1.00054e-05,-89.3252,1e-05,0.00114012,45585.4,-56126.3,72306.2,-50.9167
47,5.01337,51468.8,-62003.4,80582,-50.3041,1,1.30571e-07,0.323566,8,0.997849,0.806135,-139.498,0.106137,0.130097,1.00039e-05,-89.1939,1e-05,0.00104556,51468.8,-62003.4,80582,-50.3041
48,3.93908,57023.9,-66806.2,87833.8,-49.5169,1,1.50045e-07,0.271654,8,0.998002,0.878473,-138.596,0.106557,0.119863,1.00015e-05,-89.0794,1e-05,0.000922839,57023.9,-66806.2,87833.8,-49.5169
49,3.13755,61840.4,-70634.4,93880,-48.7979,1,1.70287e-07,0.244332,8,0.997951,0.938753,-137.792,0.109881,0.115668,9.99949e-06,-88.994,1e-05,0.000730062,61840.4,-70634.4,93880,-48.7979
50,2.48542,65834.5,-74869.1,99697.3,-48.6739,1,1.51175e-07,0.208769,8,0.969097,0.968147,179.051,0.0574014,0.058588,9.71087e-06,-132.275,1e-05,0.000314682,65834.5,-74869.1,99697.3,-48.6739
51,1.99553,69265.1,-77154.8,103685,-48.0843,1,1.63669e-07,0.182321,8,0.986588,1.05556,-171.063,0.0750454,0.0702555,1.01805e-05,-122.979,1e-05,0.000471192,69265.1,-77154.8,103685,-48.0843
52,1.58361,74163.5,-81966.5,110538,-47.8611,1,1.34151e-07,0.141918,8,0.994477,1.11422,-163.289,0.0959531,0.0851007,1.008e-05,-115.428,1e-05,0.000449396,74163.5,-81966.5,110538,-47.8611
53,1.25805,78829.1,-85692.7,116436,-47.3889,1,1.3706e-07,0.123435,8,0.997215,1.16756,-157.087,0.122717,0.103867,1.00275e-05,-109.698,1e-05,0.000479495,78829.1,-85692.7,116436,-47.3889
54,0.997765,83946.1,-88118.4,121704,-46.389,1,1.1179e-07,0.113012,8,0.998934,1.21913,-151.594,0.149099,0.120855,1.00172e-05,-105.205,1e-05,0.000394007,83946.1,-88118.4,121704,-46.389